t : Time (s)
A : Acceleration (m/s^2): X, Y, Z
G : Gyroscope    (rad/s): X, Y, Z
M : Magnetometer (uT): X, Y, Z

t	AX	AY	AZ	GX	GY	GZ	MX	MY	MZ
0.03945999999996275	-1.307	8.262	5.9	-0.02	-0.0	-0.036	13.8	-22.5	-30.9	
0.07909999999992579	-1.334	8.238	5.796	0.07	-0.0	-0.0	13.8	-23.1	-30.9	
0.1218300000000454	-1.275	8.162	5.822	-0.0	-0.151	0.042	13.8	-23.1	-30.6	
0.16177000000061525	-1.139	8.094	5.335	-0.0	0.019	-0.0	13.5	-23.4	-30.6	
0.21283000000039465	-1.25	8.227	5.787	-0.0	-0.0	0.026	13.5	-23.1	-30.6	
0.2506700000003548	-1.141	8.133	5.74	0.018	-0.0	0.022	13.8	-22.5	-31.2	
0.2898300000006202	-1.009	8.043	5.665	-0.0	-0.0	-0.022	14.4	-22.5	-31.2	
0.32990000000063446	-1.117	8.061	5.576	-0.0	-0.0	-0.021	13.8	-23.1	-30.6	
0.3698400000002948	-1.252	8.216	5.588	-0.0	0.031	-0.0	14.1	-23.4	-29.1	
0.4102200000006633	-1.304	8.207	5.769	-0.0	-0.023	-0.0	13.5	-23.7	-30.0	
0.450170000000071	-1.344	8.258	5.646	0.031	-0.0	0.03	13.2	-23.7	-30.3	
0.4902400000000853	-1.315	8.259	5.624	0.032	-0.0	0.035	13.5	-23.4	-30.9	
0.5300600000000486	-1.248	8.176	5.625	-0.0	0.029	0.042	13.5	-23.7	-31.8	
0.5700100000003658	-1.234	8.169	5.671	0.042	-0.0	0.039	13.5	-23.4	-30.9	
0.6101100000005317	-1.167	8.161	5.623	0.018	-0.0	0.058	14.4	-23.7	-30.6	
0.650180000000546	-1.086	8.075	5.481	-0.0	0.037	-0.0	14.4	-23.7	-30.3	
0.689700000000812	-1.145	8.213	5.468	-0.0	0.043	-0.0	14.1	-24.0	-30.6	
0.7392600000002858	-1.306	8.249	5.471	-0.0	0.129	0.04	14.4	-24.0	-30.3	
0.7791500000002998	-1.332	8.318	5.724	-0.0	0.052	0.086	13.5	-23.1	-30.6	
0.8221800000001167	-1.204	8.201	5.809	-0.053	-0.0	0.066	13.8	-22.5	-30.9	
0.8611500000006345	-1.087	8.067	5.756	-0.0	-0.0	-0.0	13.8	-22.2	-30.6	
0.8991700000005949	-1.199	8.28	5.743	0.071	-0.036	0.076	14.4	-22.2	-31.5	
0.9392700000007608	-1.005	8.125	5.472	-0.0	-0.054	0.097	14.7	-22.5	-31.2	
0.9692100000002029	-0.767	7.801	5.311	-0.039	0.104	-0.026	14.4	-23.1	-30.3	
1.0092500000000655	-1.015	8.135	5.603	0.057	0.121	-0.023	14.4	-23.4	-29.7	
1.0496499999999287	-1.203	8.247	5.801	-0.027	0.029	-0.018	14.4	-24.0	-29.4	
1.0895399999999427	-1.102	8.069	5.744	-0.028	-0.057	-0.073	14.7	-23.7	-29.4	
1.1294000000007145	-1.058	8.093	5.392	-0.0	0.142	-0.084	15.0	-23.7	-29.4	
1.1693700000005265	-1.213	8.259	5.685	0.087	0.045	-0.0	14.7	-23.7	-29.4	
1.2093800000002375	-1.222	8.223	5.783	-0.05	-0.084	-0.018	14.7	-22.8	-29.1	
1.2495400000007066	-1.332	8.259	5.58	0.045	-0.0	-0.0	14.7	-22.8	-29.4	
1.2890600000000632	-1.318	8.298	5.599	0.103	-0.0	0.036	14.1	-22.5	-29.7	
1.3295600000001286	-1.304	8.214	5.576	0.036	0.025	-0.021	13.8	-22.8	-29.7	
1.369419999999991	-1.334	8.292	5.53	0.064	0.038	-0.038	14.1	-23.1	-30.0	
1.4092399999999543	-1.348	8.376	5.345	0.072	0.08	0.037	14.1	-23.1	-29.7	
1.4493700000002718	-1.35	8.295	5.495	-0.0	-0.0	0.068	14.4	-24.0	-29.7	
1.4892600000002858	-1.275	8.277	5.44	-0.0	-0.0	0.076	15.0	-23.7	-29.7	
1.5288399999999456	-1.199	8.328	5.526	-0.076	-0.073	0.078	15.0	-24.0	-29.7	
1.5687600000001112	-1.193	8.343	5.572	-0.08	-0.107	0.104	15.0	-24.0	-30.0	
1.60874000000058	-1.143	8.308	5.496	0.156	-0.062	0.135	14.7	-23.7	-30.6	
1.6490200000007462	-1.153	8.253	5.313	0.066	0.337	0.175	14.1	-24.0	-30.3	
1.6890900000007605	-1.563	8.613	6.382	0.069	-0.148	0.324	14.4	-24.0	-30.3	
1.728939999999966	-1.447	8.742	5.857	0.154	-0.36	0.379	13.8	-24.3	-30.9	
1.7689500000005864	-0.839	8.124	4.531	0.203	0.248	0.157	13.5	-24.9	-30.0	
1.8090200000006007	-0.405	7.923	4.612	-0.16	0.662	0.061	13.5	-24.6	-29.7	
1.848880000000463	-0.501	8.243	5.711	-0.0	0.193	0.066	13.5	-24.9	-28.5	
1.9003300000003946	-0.457	8.235	5.751	0.181	-0.13	0.048	13.8	-25.2	-27.3	
1.9418300000006639	-0.675	8.111	5.293	-0.034	-0.196	-0.106	14.4	-24.9	-27.6	
1.9782700000005207	-1.033	8.415	4.783	-0.087	0.207	-0.104	14.4	-25.2	-27.3	
2.0224000000007436	-1.115	8.482	5.087	0.28	0.398	-0.123	14.1	-25.5	-28.2	
2.0488300000006348	-1.404	8.453	5.767	0.235	0.041	-0.175	14.7	-25.5	-27.9	
2.0883499999999913	-1.423	8.62	5.711	-0.21	-0.35	-0.124	15.0	-25.5	-27.6	
2.1390400000000227	-1.377	8.924	5.313	-0.081	-0.352	0.088	15.3	-25.8	-27.3	
2.178160000000389	-0.818	8.678	4.885	-0.0	-0.125	0.28	15.9	-26.1	-27.0	
2.2180200000002515	-0.495	8.241	5.21	-0.425	-0.226	0.294	15.0	-26.1	-27.0	
2.261410000000069	-0.661	8.258	5.925	-0.323	-0.738	0.177	14.4	-26.1	-26.7	
2.3027000000001863	-0.638	8.298	5.727	-0.468	-0.695	0.217	14.1	-25.5	-28.2	
2.342680000000655	-0.263	8.331	5.011	-0.297	-0.142	0.339	12.6	-24.6	-28.8	
2.377900000000409	-0.188	8.057	5.971	-0.374	-0.23	0.251	11.7	-24.0	-29.4	
2.4086300000008123	0.12	7.782	5.775	0.122	0.05	0.33	9.9	-23.4	-30.3	
2.4485500000000684	0.293	7.587	4.838	0.662	0.937	0.027	10.2	-23.1	-30.0	
2.4880400000001828	0.288	7.691	6.388	-0.03	0.412	-0.253	9.9	-23.4	-30.0	
2.528110000000197	0.124	7.781	6.136	-0.229	0.057	-0.264	10.5	-23.4	-30.0	
2.5680600000005143	-0.048	7.728	5.466	0.084	0.295	-0.293	10.8	-24.0	-29.4	
2.608280000000377	-0.17	7.872	5.524	0.254	0.442	-0.418	11.1	-23.7	-29.4	
2.6481900000007954	-0.685	8.052	6.131	-0.102	-0.036	-0.503	11.7	-24.0	-29.4	
2.6882600000008097	-1.3	8.448	6.002	-0.156	-0.267	-0.349	12.3	-23.4	-29.1	
2.7281800000000658	-1.045	8.142	6.305	-0.292	-0.596	-0.354	13.8	-23.4	-29.7	
2.7686200000007375	-1.088	7.962	6.006	-0.43	-0.628	-0.349	13.8	-22.8	-30.0	
2.8184799999999086	-1.307	8.154	5.942	-0.399	-0.454	-0.259	14.1	-21.9	-30.9	
2.856999999999971	-1.272	8.059	6.122	-0.287	-0.464	-0.171	13.5	-21.6	-31.2	
2.89716000000044	-1.006	7.673	5.888	-0.301	-0.329	-0.173	12.3	-21.0	-31.8	
2.9414700000006633	-1.102	7.752	5.853	-0.239	-0.113	-0.137	11.7	-20.7	-32.1	
2.977390000000014	-0.964	7.775	6.14	-0.193	-0.203	-0.068	11.1	-20.1	-32.4	
3.017820000000029	-0.969	7.45	6.222	-0.308	-0.048	-0.163	10.8	-19.2	-33.0	
3.0482200000005832	-0.708	7.329	6.525	-0.199	-0.095	-0.178	10.8	-18.0	-33.3	
3.0876200000002427	-0.647	7.202	6.809	-0.337	-0.173	-0.247	10.2	-17.7	-33.9	
3.1275900000000547	-0.817	7.253	6.514	-0.303	0.076	-0.226	10.2	-16.8	-33.3	
3.167660000000069	-1.178	7.468	6.791	0.049	0.214	-0.106	11.1	-16.2	-33.9	
3.207760000000235	-1.387	7.32	7.293	-0.07	0.164	-0.146	11.1	-15.6	-34.2	
3.2479300000004514	-1.365	7.184	7.171	0.102	-0.172	-0.145	11.1	-15.3	-33.9	
3.287810000000718	-1.294	7.174	7.167	0.22	-0.439	-0.283	11.4	-15.6	-34.5	
3.339600000000246	-1.178	7.126	5.99	0.22	-0.645	-0.255	10.8	-15.6	-34.5	
3.3772900000003574	-1.548	6.801	6.26	0.043	-0.984	-0.402	10.2	-15.9	-34.5	
3.418430000000626	-2.063	6.711	7.126	-0.283	-1.182	-0.902	9.6	-16.8	-34.8	
3.456480000000738	-1.949	6.635	6.87	-0.188	-0.564	-1.675	8.1	-16.8	-35.1	
3.501009999999951	-1.451	7.534	7.321	0.184	-0.062	-1.969	7.2	-16.5	-35.4	
3.5408000000006723	-0.892	8.103	6.377	1.595	-0.438	-1.303	7.2	-15.9	-36.3	
3.5770000000002256	-2.487	7.545	5.707	2.208	1.159	-2.545	7.5	-15.0	-36.9	
3.6172800000003917	-6.031	9.612	6.26	1.377	1.336	-4.043	9.0	-14.7	-36.6	
3.6570700000002034	-7.46	8.555	4.437	0.202	1.853	-3.851	12.0	-14.7	-34.5	
3.6960500000004686	-8.111	6.714	3.036	1.934	2.608	-5.457	15.9	-13.8	-31.8	
3.7390800000002855	-8.097	3.826	3.389	2.207	1.392	-6.867	26.7	-7.2	-24.9	
3.776400000000649	-9.878	2.968	4.119	0.025	0.482	-6.637	30.3	-2.4	-22.5	
3.820860000000721	-10.372	2.898	4.04	-0.786	0.209	-4.317	32.1	3.6	-20.1	
3.8612700000003315	-10.78	2.518	2.979	-0.08	-0.574	-1.752	32.1	10.2	-18.6	
3.896790000000692	-9.728	-0.087	2.715	-0.382	0.189	-1.163	30.6	16.5	-18.0	
3.9359400000003006	-7.68	-1.367	2.92	-0.931	0.151	-0.993	29.1	21.9	-17.1	
3.9758600000004662	-7.788	-1.185	2.968	-0.815	0.029	-0.683	27.9	25.2	-16.8	
4.006900000000314	-8.434	-0.98	2.852	-0.341	0.163	-0.471	26.1	29.1	-15.6	
4.047700000000077	-8.25	-1.722	2.924	-0.083	0.018	-0.455	25.5	30.9	-15.3	
4.08716000000004	-8.658	-2.3	2.699	0.149	-0.324	-0.245	25.2	32.7	-15.3	
4.127020000000812	-9.341	-2.741	1.906	0.14	-0.04	-0.202	24.3	33.6	-15.9	
4.1670500000000175	-9.094	-3.178	2.11	0.071	0.118	-0.401	24.0	33.9	-15.9	
4.207060000000638	-8.977	-2.692	2.182	0.456	-0.1	-0.033	23.7	33.9	-16.2	
4.246710000000348	-9.35	-3.075	2.059	0.525	-0.387	0.343	22.8	33.6	-17.4	
4.298490000000129	-8.911	-3.634	2.04	0.174	-0.175	0.15	22.5	33.0	-17.4	
4.340270000000601	-8.737	-3.613	1.989	0.098	-0.0	0.136	22.5	32.7	-17.7	
4.3763400000007096	-9.277	-3.357	2.513	-0.07	-0.166	0.458	22.5	32.1	-18.3	
4.418180000000575	-9.308	-3.23	2.188	0.111	0.122	0.348	23.1	31.5	-18.3	
4.45984000000044	-8.694	-2.811	2.321	0.089	0.152	0.521	23.4	31.2	-18.3	
4.496399999999994	-9.188	-2.878	2.513	0.114	0.063	0.336	23.4	30.9	-18.0	
4.536260000000766	-9.295	-2.713	2.17	-0.0	0.58	0.068	23.7	30.3	-18.3	
4.575410000000375	-9.12	-2.494	2.143	-0.134	0.714	0.076	24.6	30.3	-18.0	
4.606450000000223	-9.296	-2.691	2.096	-0.199	0.725	-0.082	25.8	30.0	-17.7	
4.651700000000346	-9.255	-2.339	1.796	-0.11	0.712	0.162	26.4	29.7	-17.1	
4.6867400000001	-9.554	-2.665	2.047	-0.294	0.309	0.254	26.7	29.7	-16.2	
4.727110000000721	-9.504	-2.857	1.439	-0.286	0.241	0.043	27.3	30.0	-16.2	
4.766690000000381	-9.642	-2.423	0.995	-0.257	0.097	0.144	27.9	29.7	-15.6	
4.80666999999994	-9.484	-2.122	1.024	-0.195	0.086	0.206	28.2	30.0	-14.1	
4.84650000000056	-9.374	-2.082	0.917	-0.042	0.055	0.237	27.9	30.0	-13.5	
4.898070000000189	-9.267	-2.368	0.789	-0.115	0.17	0.028	28.5	29.7	-13.2	
4.939760000000206	-9.283	-2.151	0.833	-0.111	0.186	0.094	28.2	29.7	-12.6	
4.975860000000466	-9.575	-1.987	0.912	-0.108	0.19	0.219	28.2	29.1	-12.6	
5.017730000000483	-9.699	-2.132	0.903	-0.108	0.158	0.119	28.5	29.4	-12.3	
5.0575000000008	-9.831	-1.979	0.911	-0.19	0.135	0.119	28.5	29.7	-12.0	
5.095980000000054	-9.855	-1.821	0.881	-0.121	0.186	0.054	29.1	29.7	-12.0	
5.135070000000269	-9.681	-1.725	0.931	-0.151	0.234	0.152	29.7	30.3	-11.4	
5.1749900000004345	-9.444	-1.921	0.775	-0.127	0.193	0.205	29.7	29.4	-11.4	
5.206030000000283	-9.18	-2.166	0.592	-0.085	0.126	0.105	30.6	28.8	-9.6	
5.2462500000001455	-9.298	-2.189	0.496	-0.0	0.086	0.066	30.9	27.9	-9.0	
5.286260000000766	-9.367	-2.279	0.386	-0.0	-0.028	0.081	31.2	28.5	-8.7	
5.3406700000005	-9.462	-2.322	0.225	-0.063	-0.0	-0.031	30.6	27.9	-8.7	
5.375520000000506	-9.569	-1.974	0.272	-0.076	-0.141	-0.046	30.9	28.2	-9.0	
5.41559000000052	-9.745	-1.86	0.218	-0.102	-0.121	-0.136	30.3	28.5	-9.6	
5.454620000000432	-9.746	-1.552	0.197	-0.109	0.047	-0.139	30.6	28.8	-9.3	
5.4965799999999945	-9.478	-1.433	0.266	-0.0	0.028	-0.056	30.9	29.7	-9.0	
5.5356500000007145	-9.459	-1.666	0.336	-0.0	-0.0	-0.026	30.6	29.7	-8.4	
5.575410000000375	-9.568	-1.851	0.38	-0.073	0.038	-0.036	30.9	29.4	-7.8	
5.61916999999994	-9.492	-1.827	0.513	-0.079	0.018	-0.0	30.6	29.4	-7.8	
5.659090000000106	-9.576	-1.693	0.844	0.069	-0.092	0.087	30.6	29.4	-8.4	
5.695190000000366	-9.526	-1.978	0.984	0.136	-0.282	0.025	30.3	29.4	-9.0	
5.734740000000784	-9.512	-2.091	0.628	-0.042	-0.065	-0.056	30.6	29.1	-9.0	
5.77448000000004	-9.555	-1.988	0.448	0.098	0.094	-0.172	30.3	28.8	-9.3	
5.805540000000292	-9.586	-1.757	0.685	0.202	0.049	-0.078	30.3	28.2	-9.0	
5.845770000000812	-9.546	-1.907	0.431	0.212	-0.076	0.057	30.3	28.8	-9.6	
5.8858000000000175	-9.65	-2.362	0.145	0.035	0.048	-0.147	30.3	29.1	-9.6	
5.926150000000234	-9.604	-2.176	0.459	-0.0	-0.047	-0.082	30.6	28.8	-9.0	
5.965700000000652	-9.554	-1.971	0.696	0.039	-0.247	0.286	30.6	29.4	-9.3	
6.005770000000666	-9.617	-2.32	0.433	0.023	-0.163	0.235	30.6	28.8	-9.6	
6.045170000000326	-9.629	-2.085	0.472	-0.063	-0.0	0.282	30.6	28.2	-9.9	
6.095950000000812	-9.492	-1.696	0.835	-0.083	-0.076	0.529	30.3	27.6	-10.5	
6.138789999999972	-9.614	-1.915	0.741	-0.061	0.131	0.255	30.0	27.3	-9.9	
6.174930000000131	-9.476	-1.777	0.572	-0.033	0.08	0.175	30.0	27.6	-10.2	
6.205510000000686	-9.332	-1.21	0.5	-0.132	0.131	0.52	30.3	27.6	-10.5	
6.245450000000346	-9.72	-1.169	0.891	-0.168	-0.214	0.52	31.2	27.3	-10.2	
6.285460000000057	-9.543	-1.085	0.651	0.064	-0.424	0.441	31.5	26.4	-9.9	
6.325440000000526	-9.373	-0.406	0.725	0.283	-0.733	1.238	32.4	24.9	-9.6	
6.364990000000034	-10.439	0.957	1.466	-0.0	-1.112	3.541	32.7	23.1	-10.2	
6.409360000000561	-10.145	2.604	1.518	0.328	-1.153	5.693	32.7	19.5	-11.7	
6.445740000000114	-9.667	4.233	2.331	1.088	-1.429	8.118	33.3	13.2	-13.8	
6.498600000000806	-10.747	4.894	7.092	1.475	-4.347	11.396	31.5	3.0	-16.5	
6.53476000000046	-9.065	1.426	6.649	3.046	-5.151	10.732	27.0	-8.4	-19.5	
6.57416000000012	-2.665	5.724	1.092	3.949	-3.181	10.023	17.4	-20.4	-21.6	
6.6137100000005375	0.158	9.146	-0.572	2.787	-0.861	9.404	3.3	-28.8	-21.3	
6.653780000000552	6.084	3.851	-2.21	4.265	-1.061	6.554	-13.2	-31.8	-18.0	
6.695590000000266	11.889	-0.737	-5.769	4.221	0.929	3.469	-28.5	-30.3	-13.2	
6.73834000000079	12.244	1.031	-2.797	-0.394	1.212	3.248	-39.6	-24.9	-7.8	
6.77448000000004	10.143	0.913	-0.288	-2.112	0.177	4.194	-46.8	-18.9	-4.5	
6.805020000000695	8.998	0.019	-1.164	-2.702	-0.056	5.841	-51.0	-5.7	-3.6	
6.845400000000154	7.953	-3.794	-2.168	-3.289	0.116	6.588	-51.9	2.1	-4.2	
6.885009999999966	6.991	-8.606	-1.606	-1.287	0.154	3.253	-50.7	11.1	-3.9	
6.92450000000008	8.299	-9.871	-0.199	0.162	-1.281	0.117	-49.5	18.9	-3.0	
6.964600000000246	6.87	-6.87	-2.999	0.166	-0.577	-0.646	-48.6	24.3	-2.1	
7.004460000000108	6.225	-3.811	-2.84	0.509	-0.519	-0.044	-48.0	27.0	-1.2	
7.044890000000123	5.621	-4.178	-3.329	1.294	0.07	-0.475	-48.3	27.9	-0.9	
7.0986000000002605	5.714	-4.532	-3.251	1.979	0.581	-0.725	-48.6	27.3	-0.9	
7.137970000000678	6.585	-4.962	-2.448	1.854	0.855	-0.399	-48.9	26.4	-2.4	
7.174130000000332	7.427	-6.89	-1.799	1.132	1.184	-1.456	-48.9	25.2	-3.9	
7.214390000000094	8.694	-5.208	-0.649	1.022	0.848	-1.143	-49.2	23.4	-6.6	
7.253240000000005	9.776	-4.487	0.508	0.346	0.407	-0.146	-43.2	18.3	-19.5	
7.29508000000078	9.183	-4.955	0.91	-0.0	0.292	0.134	-43.5	16.5	-21.0	
7.337860000000546	8.676	-5.23	1.154	0.18	0.14	0.126	-43.2	15.0	-22.8	
7.374120000000403	8.523	-5.641	1.118	0.193	0.054	-0.044	-43.2	14.7	-23.7	
7.404480000000149	8.258	-5.592	0.95	0.148	0.041	-0.051	-42.9	14.7	-25.5	
7.444520000000011	8.31	-5.432	0.792	0.034	-0.0	-0.075	-43.2	15.0	-25.2	
7.48450000000048	8.436	-5.188	0.522	0.027	-0.076	-0.178	-42.9	14.4	-25.2	
7.524110000000292	8.31	-5.131	0.164	-0.067	0.087	-0.219	-42.6	14.1	-24.9	
7.5640900000007605	8.624	-4.678	0.657	-0.06	0.307	0.068	-42.0	14.1	-24.6	
7.607730000000629	9.254	-5.015	1.024	0.177	-0.0	-0.176	-42.0	13.8	-24.9	
7.644350000000486	9.017	-4.97	0.78	0.341	-0.028	-0.416	-42.6	13.5	-25.2	
7.697630000000572	8.848	-4.753	0.797	0.291	0.018	-0.423	-42.6	13.2	-25.5	
7.7374900000004345	8.726	-4.649	0.867	0.402	-0.083	-0.696	-42.9	12.6	-25.5	
7.77368000000024	8.496	-4.197	1.03	0.81	-0.195	-1.098	-43.2	11.7	-25.5	
7.813780000000406	9.291	-3.282	1.297	0.512	-0.096	-0.538	-43.2	10.8	-25.5	
7.84375	9.106	-3.527	1.011	0.324	-0.033	-0.346	-44.1	6.9	-24.9	
7.895600000000741	9.088	-3.738	0.832	0.307	0.028	-0.418	-43.5	5.7	-24.3	
7.937350000000151	9.318	-3.694	1.06	0.314	-0.026	-0.494	-43.5	4.2	-24.6	
7.9734800000005635	9.337	-3.354	1.116	0.339	-0.104	-0.598	-44.1	4.2	-24.9	
8.004030000000057	9.13	-2.923	1.059	0.376	-0.056	-0.448	-44.1	3.0	-25.8	
8.055270000000746	9.334	-2.909	1.196	0.034	0.021	-0.146	-44.4	2.7	-25.2	
8.093810000000303	9.44	-2.853	1.227	-0.042	0.039	-0.048	-44.1	1.5	-24.3	
8.133670000000166	9.469	-2.757	1.25	-0.101	0.042	-0.085	-43.8	0.6	-24.0	
8.172849999999926	9.579	-2.456	1.312	-0.125	-0.0	-0.05	-43.5	-0.3	-23.4	
8.203640000000632	9.572	-2.387	1.333	-0.19	-0.0	0.082	-43.2	-0.9	-24.0	
8.243870000000243	9.471	-2.652	1.137	-0.216	-0.0	0.031	-43.5	-0.3	-24.0	
8.29718000000048	9.361	-2.646	1.181	0.026	-0.0	-0.081	-43.8	0.6	-24.0	
8.33755999999994	9.498	-2.735	1.32	0.061	-0.023	-0.11	-43.8	1.5	-24.0	
8.373170000000755	9.554	-2.509	1.266	0.176	-0.0	-0.123	-44.1	1.5	-24.6	
8.413300000000163	9.802	-2.512	1.359	0.306	-0.169	-0.271	-44.4	0.9	-24.6	
8.443240000000515	9.784	-2.441	1.193	0.194	-0.21	-0.221	-43.5	-0.6	-24.9	
8.495150000000649	9.565	-2.247	0.968	0.146	-0.102	-0.131	-43.5	-1.5	-24.3	
8.537049999999908	9.769	-2.329	1.228	0.377	-0.226	-0.365	-43.2	-2.1	-23.4	
8.573120000000017	9.915	-2.264	1.367	0.509	-0.36	-0.648	-43.8	-1.8	-23.1	
8.603970000000118	10.176	-1.956	1.531	0.827	-0.535	-0.894	-44.7	-2.7	-22.2	
8.64400999999998	11.089	-2.771	1.604	1.245	-1.038	-2.094	-44.7	-4.5	-22.5	
8.683560000000398	13.149	-4.197	2.225	1.781	-2.273	-5.772	-44.7	-7.8	-21.6	
8.734040000000277	12.819	-2.161	1.107	0.551	-3.424	-8.805	-43.2	-13.5	-18.6	
8.772460000000137	4.696	2.259	-4.461	-2.139	-2.233	-9.932	-39.9	-21.6	-15.0	
8.8092400000005	-3.152	5.626	-5.399	-5.28	0.425	-9.34	-24.0	-37.8	-10.2	
8.844030000000203	-3.024	7.184	2.319	-9.799	0.167	-6.0	-12.6	-40.8	-14.1	
8.894620000000032	-0.49	7.082	4.648	-8.812	1.133	-4.953	-0.6	-38.7	-21.9	
8.923310000000129	-2.264	6.616	3.81	-4.839	1.911	-4.409	15.3	-24.3	-38.1	
8.964050000000498	-6.344	0.706	5.687	-4.201	1.21	-5.358	19.8	-14.1	-42.6	
9.003360000000612	-6.352	-1.742	7.199	-5.429	0.968	-5.038	22.5	-3.9	-43.5	
9.043150000000423	-6.748	-0.117	10.793	-5.562	-0.092	-3.57	24.3	7.5	-42.0	
9.094880000000558	-7.082	1.599	10.341	-2.029	-0.261	-1.783	24.0	18.6	-38.7	
9.135990000000675	-5.614	0.388	11.258	-0.569	-0.748	0.508	22.5	26.7	-35.1	
9.172849999999926	-4.984	-3.187	9.606	0.231	-0.188	0.752	20.4	32.4	-32.1	
9.203130000000783	-4.301	-3.979	9.691	0.417	-0.463	0.415	18.9	34.5	-31.2	
9.243530000000646	-3.906	-3.338	9.507	0.493	-0.867	0.027	19.2	34.2	-32.1	
9.283300000000054	-4.213	-2.646	9.009	0.463	-0.86	-0.262	19.5	33.6	-33.0	
9.334380000000237	-4.707	-2.523	8.552	0.304	-0.563	-0.428	18.9	33.3	-34.8	
9.372800000000097	-4.953	-2.028	8.53	0.225	-0.251	-0.253	18.3	32.4	-35.4	
9.414400000000569	-5.102	-1.846	8.241	0.278	0.199	-0.027	17.4	31.8	-35.7	
9.44315000000006	-4.996	-2.372	8.177	0.058	0.418	0.098	16.2	30.9	-36.0	
9.496550000000752	-4.675	-2.551	7.867	0.043	0.598	0.092	16.2	31.2	-36.3	
9.53418000000056	-4.357	-2.234	8.173	-0.059	0.349	0.275	16.2	31.2	-36.6	
9.563110000000052	-4.651	-2.556	7.901	0.208	0.511	0.039	16.8	32.4	-36.0	
9.60309000000052	-4.443	-2.828	8.842	-0.029	-0.185	0.036	17.1	32.4	-36.0	
9.654210000000603	-4.817	-3.272	8.35	-0.116	-0.254	-0.183	17.7	33.0	-36.0	
9.694400000000314	-5.037	-2.88	8.095	-0.068	-0.024	-0.206	18.0	32.7	-35.7	
9.737090000000535	-4.968	-2.36	8.6	-0.0	-0.112	-0.022	17.7	31.2	-36.0	
9.772770000000492	-4.92	-2.212	8.629	0.182	-0.139	-0.0	17.4	31.2	-36.0	
9.802950000000237	-4.877	-2.13	8.491	0.211	-0.196	0.031	16.8	31.5	-37.5	
9.8431700000001	-4.734	-2.07	8.243	0.13	-0.102	0.069	17.1	32.7	-37.2	
9.883150000000569	-4.561	-1.801	8.161	0.135	-0.0	0.14	17.4	32.4	-37.2	
9.9338400000006	-4.431	-1.866	8.179	0.167	0.073	0.182	18.0	32.1	-37.8	
9.972810000000209	-4.377	-2.149	8.338	0.179	0.046	0.13	17.7	30.6	-37.5	
10.00275000000056	-4.47	-2.428	8.327	0.061	-0.0	0.038	17.7	29.4	-37.5	
10.043150000000423	-4.538	-2.401	8.25	-0.0	-0.0	-0.086	17.1	29.7	-37.2	
10.096470000000409	-4.573	-2.07	8.371	-0.0	-0.026	-0.107	17.1	30.3	-37.2	
10.136170000000675	-4.714	-1.962	8.399	0.094	-0.043	-0.097	16.5	30.6	-37.5	
10.172489999999925	-4.72	-2.058	8.17	0.036	-0.0	-0.076	16.2	30.6	-37.5	
10.212490000000798	-4.721	-1.928	8.169	-0.0	0.091	-0.0	15.9	29.7	-37.8	
10.242490000000544	-4.66	-1.838	8.339	0.031	0.09	-0.0	17.1	28.8	-37.2	
10.294560000000274	-4.536	-1.892	8.527	0.031	-0.0	-0.0	17.4	28.5	-37.2	
10.337010000000191	-4.526	-1.962	8.391	0.053	-0.032	-0.0	17.4	29.1	-36.9	
10.372769999999946	-4.589	-2.01	8.31	0.039	0.029	-0.019	16.8	29.4	-36.9	
10.41635000000042	-4.627	-1.915	8.319	0.069	0.051	-0.079	17.1	30.3	-37.8	
10.45614999999998	-4.641	-1.794	8.171	0.196	0.227	-0.149	17.1	30.0	-38.4	
10.49265000000014	-4.658	-1.891	8.502	-0.071	0.174	0.075	16.8	30.3	-38.4	
10.533300000000054	-4.82	-2.075	8.681	-0.029	0.196	-0.019	16.8	30.3	-38.4	
10.572450000000572	-4.72	-1.724	8.98	0.106	-0.083	0.061	16.8	30.0	-38.7	
10.602750000000015	-4.936	-1.904	8.588	0.255	-0.141	0.053	17.4	29.7	-37.5	
10.643800000000738	-5.008	-2.085	8.156	0.223	-0.021	-0.0	17.1	29.1	-37.8	
10.696470000000772	-4.882	-1.808	8.112	0.163	0.048	0.064	17.7	29.4	-38.1	
10.736150000000634	-4.777	-1.557	8.019	0.135	0.165	0.053	17.4	28.8	-38.1	
10.77332000000024	-4.82	-0.938	8.159	0.346	0.256	0.129	17.7	28.5	-38.1	
10.812380000000303	-4.934	-1.426	8.309	0.138	0.222	0.276	17.7	28.2	-38.1	
10.842500000000655	-5.145	-2.082	8.163	-0.106	0.307	0.11	18.6	27.3	-38.7	
10.894530000000486	-4.975	-1.497	8.571	-0.075	0.138	0.051	19.5	26.7	-39.0	
10.936980000000403	-5.068	-1.256	8.62	0.146	0.041	-0.107	19.8	27.0	-39.0	
10.972870000000512	-5.308	-0.71	8.795	0.672	0.088	-0.0	19.5	27.0	-38.7	
11.00293000000056	-5.255	-1.012	8.781	0.528	-0.032	0.357	19.2	27.0	-39.6	
11.044650000000729	-5.521	-1.073	8.021	0.704	0.29	0.21	19.8	26.4	-39.6	
11.083010000000286	-5.267	-0.25	8.241	0.771	0.279	0.465	20.4	25.2	-39.9	
11.133060000000114	-5.857	0.243	8.377	1.257	0.135	0.488	21.0	24.6	-39.3	
11.173620000000483	-5.704	-0.21	8.661	0.873	-0.227	0.501	21.6	23.1	-39.6	
11.208950000000186	-5.417	-0.848	7.727	0.402	0.026	0.095	22.5	20.4	-40.8	
11.24380999999994	-5.43	0.382	7.925	0.21	0.11	0.022	22.2	19.5	-41.4	
11.296450000000732	-5.522	1.017	8.215	0.25	-0.027	0.099	22.5	19.5	-41.7	
11.336210000000392	-5.636	0.943	8.11	0.294	0.032	-0.0	22.2	18.9	-42.0	
11.372740000000704	-5.787	1.224	8.19	0.392	0.155	-0.0	22.2	18.6	-42.3	
11.412570000000414	-5.86	1.899	8.542	0.688	0.067	0.222	22.2	18.3	-42.6	
11.442600000000311	-5.728	1.89	8.572	0.861	-0.05	0.332	22.8	16.2	-43.2	
11.494540000000598	-5.635	1.828	8.248	0.817	0.072	0.32	22.8	14.4	-43.5	
11.537140000000363	-5.684	2.514	8.156	0.972	0.113	0.374	23.1	13.5	-43.8	
11.57275000000027	-5.552	2.586	8.051	0.912	-0.0	0.425	23.1	12.0	-43.8	
11.603390000000218	-5.415	2.193	7.76	0.577	-0.0	0.305	23.4	10.2	-44.1	
11.64307000000008	-5.297	2.465	7.491	0.34	0.057	0.115	24.3	8.7	-44.1	
11.683200000000397	-5.396	3.042	7.567	0.362	0.061	0.045	24.6	7.5	-43.8	
11.733220000000074	-5.447	3.009	7.689	0.143	-0.071	0.06	24.6	6.9	-43.5	
11.772130000000288	-5.574	3.086	7.481	0.041	-0.0	-0.027	24.3	6.3	-43.5	
11.807099999999991	-5.638	3.504	7.559	0.053	0.08	-0.0	24.3	5.7	-43.2	
11.8429900000001	-5.646	3.619	7.603	0.098	0.091	0.043	24.0	5.7	-44.1	
11.896490000000085	-5.603	3.541	7.63	0.058	0.042	0.026	23.7	5.1	-43.8	
11.93243000000075	-5.48	3.664	7.509	0.059	0.059	-0.0	24.0	4.8	-44.1	
11.973270000000412	-5.419	3.871	7.488	0.128	0.04	0.028	24.0	4.8	-44.1	
12.011989999999969	-5.433	3.734	7.498	0.083	-0.026	0.076	24.0	4.8	-43.5	
12.052120000000286	-5.445	3.516	7.34	0.027	0.065	-0.061	24.3	5.1	-43.5	
12.094300000000658	-5.443	3.822	7.471	0.045	0.038	-0.0	24.6	4.5	-43.5	
12.123510000000351	-5.546	3.747	7.515	0.096	-0.0	-0.0	24.0	4.5	-42.6	
12.163390000000618	-5.576	3.522	7.434	-0.0	-0.0	-0.034	23.4	3.9	-42.6	
12.20343000000048	-5.563	3.685	7.359	0.03	-0.0	-0.044	24.0	4.8	-42.3	
12.243440000000192	-5.622	3.944	7.467	0.173	0.018	0.026	24.3	4.2	-42.3	
12.283330000000205	-5.712	3.777	7.541	0.208	0.062	0.021	24.6	3.6	-42.6	
12.335080000000744	-5.679	3.935	7.541	0.322	0.098	0.092	24.3	3.6	-42.9	
12.373570000000655	-5.772	3.953	7.453	0.496	0.166	0.047	24.3	2.4	-42.6	
12.40900000000056	-5.89	4.073	7.523	0.484	0.308	-0.0	24.3	2.1	-42.9	
12.444280000000617	-5.968	4.6	7.491	0.555	0.344	0.206	24.9	1.2	-42.6	
12.483220000000074	-6.092	5.017	6.807	1.01	0.773	0.085	24.9	1.2	-42.0	
12.529449999999997	-6.649	6.635	5.925	2.147	1.522	0.229	25.5	-0.3	-41.4	
12.563420000000406	-7.242	6.395	5.625	2.418	2.339	0.094	27.3	-2.4	-39.9	
12.603060000000369	-7.1	5.653	4.831	1.82	3.206	-0.086	29.1	-4.5	-37.8	
12.642640000000029	-8.446	7.15	2.595	3.513	4.166	-0.941	32.4	-7.5	-34.5	
12.694550000000163	-8.526	7.133	4.079	4.248	2.649	-1.4	36.3	-9.6	-28.5	
12.73486000000048	-8.074	6.404	0.388	3.539	3.392	-0.521	39.6	-10.8	-23.1	
12.763400000000729	-9.385	6.398	-4.022	4.993	5.62	-0.6	43.5	-10.8	-9.6	
12.802980000000389	-8.951	4.918	-0.441	5.659	4.029	-0.464	43.2	-9.9	-2.4	
12.843080000000555	-6.457	4.845	-3.047	5.171	4.387	2.679	43.5	-9.6	9.6	
12.883240000000114	-7.335	4.22	-2.991	5.226	3.322	4.917	40.8	-8.7	17.4	
12.933200000000397	-7.199	1.39	-4.792	6.529	1.995	5.386	37.2	-6.9	24.0	
12.972020000000157	-4.182	-3.944	-7.737	3.035	0.88	3.934	34.2	-5.1	29.1	
13.013280000000123	-3.226	-7.284	-11.819	0.081	2.283	1.762	30.9	-5.1	32.7	
13.050350000000435	-3.052	-1.754	-9.436	0.448	2.693	1.797	25.5	-4.8	37.8	
13.097230000000309	-1.864	-0.31	-7.498	0.588	2.149	2.539	22.2	-6.0	39.6	
13.136199999999917	-0.978	-3.162	-8.562	0.785	2.093	1.453	18.9	-6.0	41.1	
13.17294000000038	0.15	-3.645	-8.658	0.717	1.773	0.697	15.6	-6.3	41.4	
13.213040000000547	1.292	-2.792	-7.885	0.526	1.286	1.047	11.7	-5.1	42.6	
13.24265000000014	1.057	-3.999	-8.445	0.458	0.959	0.879	6.0	-3.9	44.1	
13.294560000000274	1.082	-4.754	-8.599	0.225	0.743	0.498	4.2	-3.3	45.0	
13.33698000000004	1.38	-4.044	-8.427	0.037	0.525	0.607	3.0	-3.0	45.3	
13.372350000000552	1.404	-4.402	-8.492	-0.194	0.313	0.399	1.8	-3.0	45.3	
13.403290000000197	1.433	-3.753	-8.377	-0.133	0.064	0.122	0.0	-2.7	45.0	
13.443479999999909	1.35	-3.255	-8.281	-0.108	-0.12	0.056	-0.9	-2.7	45.0	
13.483030000000326	1.29	-3.1	-8.451	-0.055	-0.117	-0.029	-1.2	-3.3	45.0	
13.532960000000458	1.163	-3.09	-8.754	0.022	0.035	-0.207	-0.6	-3.9	45.6	
13.572390000000269	1.476	-2.904	-8.682	-0.022	0.076	-0.019	0.0	-3.3	45.6	
13.608770000000732	1.638	-2.846	-8.738	0.082	0.073	0.077	0.0	-3.3	46.2	
13.643280000000232	1.64	-3.127	-8.773	0.018	0.051	0.111	-0.6	-3.3	46.2	
13.693790000000263	1.553	-3.248	-8.929	0.105	0.154	-0.0	-0.3	-3.3	45.9	
13.723450000000412	1.865	-2.995	-8.766	0.171	0.126	0.141	-0.3	-3.0	44.4	
13.763890000000174	1.864	-3.268	-8.741	0.182	-0.0	0.084	0.0	-2.7	44.1	
13.803130000000237	1.636	-3.471	-8.787	0.152	0.022	-0.0	-0.3	-2.1	44.1	
13.842560000000049	1.64	-3.609	-8.55	0.085	0.023	0.034	-0.6	-2.7	44.7	
13.894560000000638	1.665	-3.544	-8.434	0.08	-0.044	0.099	-0.6	-2.1	44.7	
13.935879999999997	1.57	-3.738	-8.557	0.07	-0.057	-0.023	-0.6	-1.8	45.0	
13.97244000000046	1.514	-3.744	-8.597	0.049	-0.024	-0.086	0.0	-1.5	44.7	
14.002960000000712	1.654	-3.43	-8.49	0.027	-0.057	0.071	-0.3	-0.9	44.4	
14.044950000000426	1.506	-3.618	-8.584	0.052	-0.042	-0.029	-0.9	-1.8	43.8	
14.083470000000489	1.488	-3.823	-8.694	0.023	-0.073	-0.254	-1.2	-2.1	44.4	
14.13300000000072	1.489	-3.381	-8.743	-0.019	-0.054	-0.108	-1.2	-2.1	44.1	
14.17233000000033	1.2	-3.706	-8.899	-0.094	0.038	-0.324	-0.6	-1.8	44.1	
14.20886000000064	0.644	-4.25	-9.061	-0.1	0.267	-1.392	-0.6	-0.3	44.1	
14.243100000000595	1.659	-3.355	-9.062	0.204	0.302	-1.548	-0.9	-0.6	44.4	
14.296510000000126	3.187	-1.394	-8.098	0.08	0.028	0.107	-1.2	-0.6	44.7	
14.336150000000089	2.519	-2.587	-8.185	0.095	0.033	0.555	-0.9	-1.2	44.7	
14.372769999999946	2.35	-3.478	-8.4	0.16	0.131	0.292	-0.9	-0.9	44.7	
14.41247999999996	2.577	-3.387	-8.368	0.274	0.069	0.306	-0.3	0.0	44.4	
14.442690000000766	2.325	-3.813	-8.677	0.279	0.161	0.262	-1.2	0.0	43.8	
14.482790000000023	2.298	-4.783	-8.356	0.059	0.17	-0.274	-1.2	0.0	43.8	
14.535950000000412	2.437	-5.222	-7.847	-0.087	0.12	-1.271	-2.1	-0.3	43.8	
14.572450000000572	3.017	-4.723	-7.635	-0.288	-0.12	-1.399	-1.8	0.3	43.8	
14.611050000000432	3.737	-5.468	-7.024	-1.272	-1.124	-1.511	-1.8	0.0	44.1	
14.654300000000148	3.632	-6.805	-7.885	-2.602	-1.739	-2.46	-0.3	-1.2	43.8	
14.692630000000463	3.13	-4.878	-7.501	-2.721	-2.507	-2.725	1.2	-3.9	44.1	
14.734220000000278	1.367	-3.733	-6.294	-3.161	-4.172	-3.443	3.9	-7.2	43.5	
14.773619999999937	-0.763	-2.369	-6.472	-4.235	-5.014	-4.725	9.3	-11.1	42.6	
14.802800000000389	-3.896	-0.129	-4.412	-4.118	-5.712	-5.62	23.1	-16.5	34.2	
14.873140000000603	-8.246	0.512	-1.012	-2.962	-6.237	-7.376	31.8	-15.6	27.9	
14.911130000000412	-9.903	-0.497	0.256	-3.284	-5.945	-5.403	42.9	-4.5	9.9	
14.956390000000283	-14.412	-1.019	1.273	-3.205	-3.262	-4.748	45.3	3.3	1.2	
14.996430000000146	-14.599	-0.765	-0.08	-0.193	-1.617	-4.562	45.6	11.7	-5.1	
15.032750000000306	-10.84	-2.483	2.982	-0.139	-2.742	-1.351	42.9	18.6	-8.7	
15.073090000000775	-11.429	-5.788	2.532	-0.99	-2.617	-0.295	39.9	24.0	-11.7	
15.113250000000335	-12.367	-6.564	1.844	-1.821	-0.802	-1.696	36.3	27.6	-13.5	
15.152219999999943	-10.092	-3.803	2.426	-1.233	-0.992	-0.626	32.4	30.0	-15.0	
15.198790000000372	-8.974	-3.973	1.884	-0.642	-1.571	0.755	30.3	32.1	-16.2	
15.251070000000254	-9.808	-4.65	1.275	-0.609	-0.366	-0.436	27.6	34.5	-16.5	
15.294310000000223	-9.102	-3.752	1.707	-0.336	0.083	-0.428	27.0	35.4	-15.9	
15.332400000000234	-8.142	-3.809	2.311	0.159	-0.477	0.361	26.4	35.7	-15.9	
15.373019999999997	-8.196	-4.65	2.269	-0.186	-0.838	0.453	25.8	36.0	-15.9	
15.413360000000466	-7.933	-4.811	1.837	-0.347	-0.871	0.337	26.4	36.0	-15.6	
15.449040000000423	-8.377	-4.892	1.782	-0.417	-0.475	-0.038	26.1	36.3	-16.8	
15.483220000000074	-8.515	-4.673	2.326	-0.372	-0.436	-0.081	26.1	36.9	-17.4	
15.552520000000186	-8.152	-4.431	2.6	-0.121	-0.787	0.558	25.2	36.6	-18.0	
15.596160000000054	-8.2	-4.66	2.999	-0.243	-0.922	0.38	24.9	36.6	-18.9	
15.632660000000214	-8.047	-4.555	2.937	-0.087	-1.034	0.166	25.2	36.6	-18.6	
15.663640000000669	-7.933	-4.439	3.406	0.105	-0.903	0.232	23.7	36.3	-19.5	
15.703220000000329	-7.978	-4.297	4.028	0.099	-1.044	0.111	23.7	35.4	-19.8	
15.747160000000804	-7.946	-4.594	3.917	0.211	-0.919	0.246	22.8	35.4	-20.7	
15.797669999999925	-6.398	-4.089	5.926	0.808	-2.508	0.758	22.8	34.8	-21.6	
15.85834000000068	-6.064	-3.411	7.423	0.916	-4.088	1.398	21.6	34.5	-24.9	
15.934270000000652	-5.933	-1.992	8.584	0.851	-4.526	1.686	18.6	31.5	-30.0	
15.972690000000512	-5.868	-2.104	9.101	0.553	-4.365	1.187	14.7	29.4	-32.7	
16.00290000000041	-4.105	-1.992	9.403	0.379	-4.072	0.857	4.8	26.4	-37.2	
16.053830000000744	-3.087	-1.428	9.653	0.171	-3.401	0.293	0.3	25.8	-39.0	
16.0920100000003	-1.846	0.035	10.101	0.352	-2.816	0.384	-3.6	25.5	-39.6	
16.13471000000027	-0.078	-0.801	9.655	1.467	-2.055	-0.274	-9.9	24.3	-39.0	
16.172520000000077	2.264	-0.599	10.206	2.239	-2.266	-0.842	-12.3	23.1	-38.1	
16.217900000000554	3.32	-0.237	9.353	1.983	-2.004	-0.399	-15.6	21.0	-38.1	
16.297849999999926	3.57	1.392	7.565	2.3	-0.481	-0.734	-22.5	14.7	-37.8	
16.372890000000552	3.562	3.182	6.961	2.346	0.51	-0.422	-27.6	7.2	-37.5	
16.41269000000011	3.46	3.518	6.613	2.457	0.509	-0.805	-28.2	3.0	-37.8	
16.442660000000615	4.406	5.864	7.355	3.097	0.22	-0.457	-26.7	-4.8	-37.2	
16.482790000000023	2.54	7.961	6.538	3.178	0.497	1.12	-26.4	-8.4	-36.6	
16.53765999999996	1.74	9.636	6.707	4.04	1.499	2.585	-25.2	-11.7	-35.7	
16.594450000000506	3.526	7.165	6.669	3.194	0.608	3.068	-25.8	-18.3	-33.9	
16.631170000000566	3.747	8.295	1.799	3.43	3.269	3.532	-26.7	-21.6	-32.7	
16.663610000000517	5.078	6.421	6.088	2.414	1.611	3.222	-27.3	-22.5	-31.8	
16.70303000000058	7.683	4.554	5.907	1.276	-0.3	2.118	-27.6	-22.2	-30.6	
16.743040000000292	9.025	6.71	2.718	1.751	-0.673	1.523	-28.2	-22.2	-29.4	
16.782650000000103	8.262	6.154	1.735	1.665	-0.359	1.688	-29.4	-22.2	-27.6	
16.834720000000743	7.734	3.722	1.216	1.297	0.024	0.49	-31.2	-22.8	-25.8	
16.8732600000003	8.573	3.682	1.354	0.991	0.267	-0.424	-32.4	-22.5	-24.9	
16.91794000000027	8.126	5.473	1.865	0.427	0.196	-0.234	-33.3	-22.8	-24.0	
16.99869000000035	7.758	6.798	1.403	1.263	1.238	-1.458	-32.7	-23.1	-23.4	
17.05823000000055	6.076	7.321	0.915	4.125	3.976	-5.05	-29.1	-27.0	-23.7	
17.10309000000052	5.918	11.926	3.251	6.763	3.126	-5.622	-20.1	-34.8	-20.7	
17.142700000000332	5.911	13.533	5.838	7.529	-0.522	-1.532	-13.5	-39.6	-14.7	
17.19275000000016	2.749	7.321	-0.986	5.033	-1.354	0.673	-7.5	-43.2	-6.3	
17.238860000000386	1.608	3.459	-6.797	4.032	-0.071	-0.521	-2.1	-44.7	2.1	
17.29816000000028	2.113	2.709	-7.065	2.859	-0.542	-1.481	0.9	-40.8	18.6	
17.372890000000552	0.677	2.298	-8.611	1.558	-0.481	-2.919	2.1	-34.8	28.2	
